subject_id,block,trial_id,angle,char_type,rt,correct,timestamp
S005,0,1,60,normal,833,1,2026-05-14T08:00:00Z
S005,0,2,0,mirror,793,1,2026-05-14T08:00:02.879995Z
S005,0,3,240,mirror,1098,1,2026-05-14T08:00:05.218274Z
S005,0,4,240,normal,970,1,2026-05-14T08:00:07.289793Z
S005,0,5,180,normal,1239,1,2026-05-14T08:00:09.901736Z
S005,0,6,120,mirror,1065,1,2026-05-14T08:00:12.414310Z
S005,0,7,300,normal,791,1,2026-05-14T08:00:14.790421Z
S005,0,8,120,normal,964,1,2026-05-14T08:00:17.444068Z
S005,0,9,0,mirror,790,1,2026-05-14T08:00:20.384972Z
S005,0,10,300,mirror,1038,1,2026-05-14T08:00:23.269575Z
S005,0,11,0,normal,595,1,2026-05-14T08:00:26.147654Z
S005,0,12,300,mirror,974,0,2026-05-14T08:00:28.275206Z
S005,0,13,60,mirror,913,1,2026-05-14T08:00:30.557995Z
S005,0,14,180,mirror,1151,1,2026-05-14T08:00:33.272284Z
S005,0,15,180,normal,1136,1,2026-05-14T08:00:35.923659Z
S005,0,16,300,normal,806,0,2026-05-14T08:00:38.222900Z
S005,0,17,120,mirror,1101,1,2026-05-14T08:00:40.548721Z
S005,0,18,180,mirror,1253,1,2026-05-14T08:00:43.513304Z
S005,0,19,240,mirror,994,1,2026-05-14T08:00:46.219729Z
S005,0,20,60,mirror,960,1,2026-05-14T08:00:48.977723Z
S005,0,21,0,normal,656,1,2026-05-14T08:00:51.415669Z
S005,0,22,120,normal,974,1,2026-05-14T08:00:53.797582Z
S005,0,23,60,normal,806,1,2026-05-14T08:00:56.388737Z
S005,0,24,240,normal,1137,1,2026-05-14T08:00:58.686949Z
S005,1,1,60,mirror,868,1,2026-05-14T08:01:01.073080Z
S005,1,2,60,mirror,871,1,2026-05-14T08:01:03.549732Z
S005,1,3,300,mirror,664,1,2026-05-14T08:01:06.518882Z
S005,1,4,180,mirror,1185,1,2026-05-14T08:01:08.975437Z
S005,1,5,0,normal,604,1,2026-05-14T08:01:11.862883Z
S005,1,6,120,mirror,869,1,2026-05-14T08:01:14.432315Z
S005,1,7,180,mirror,1212,1,2026-05-14T08:01:16.669501Z
S005,1,8,120,normal,979,1,2026-05-14T08:01:18.780021Z
S005,1,9,60,normal,743,1,2026-05-14T08:01:21.665109Z
S005,1,10,240,normal,848,1,2026-05-14T08:01:23.728113Z
S005,1,11,0,normal,514,1,2026-05-14T08:01:25.729446Z
S005,1,12,0,mirror,701,1,2026-05-14T08:01:28.469082Z
S005,1,13,180,mirror,1122,1,2026-05-14T08:01:30.904240Z
S005,1,14,300,mirror,866,1,2026-05-14T08:01:33.318530Z
S005,1,15,180,normal,1088,1,2026-05-14T08:01:36.108376Z
S005,1,16,240,normal,841,1,2026-05-14T08:01:38.253291Z
S005,1,17,120,mirror,1008,1,2026-05-14T08:01:41.088876Z
S005,1,18,300,mirror,833,1,2026-05-14T08:01:43.475696Z
S005,1,19,60,normal,742,1,2026-05-14T08:01:46.346326Z
S005,1,20,240,normal,815,1,2026-05-14T08:01:48.751349Z
S005,1,21,180,normal,967,1,2026-05-14T08:01:51.604053Z
S005,1,22,180,normal,1003,1,2026-05-14T08:01:54.200466Z
S005,1,23,120,mirror,876,0,2026-05-14T08:01:56.558661Z
S005,1,24,240,normal,855,1,2026-05-14T08:01:59.273475Z
S005,1,25,0,mirror,606,1,2026-05-14T08:02:01.699357Z
S005,1,26,0,normal,513,1,2026-05-14T08:02:03.811257Z
S005,1,27,60,normal,799,1,2026-05-14T08:02:06.497081Z
S005,1,28,300,mirror,819,1,2026-05-14T08:02:08.561485Z
S005,1,29,240,normal,865,1,2026-05-14T08:02:11.129955Z
S005,1,30,240,mirror,1013,1,2026-05-14T08:02:13.753629Z
S005,1,31,240,mirror,1035,1,2026-05-14T08:02:16.726393Z
S005,1,32,120,normal,897,1,2026-05-14T08:02:19.207690Z
S005,1,33,60,normal,728,1,2026-05-14T08:02:21.580883Z
S005,1,34,300,normal,725,0,2026-05-14T08:02:23.586657Z
S005,1,35,240,mirror,943,1,2026-05-14T08:02:25.765115Z
S005,1,36,120,mirror,939,1,2026-05-14T08:02:28.216287Z
S005,1,37,0,normal,555,1,2026-05-14T08:02:30.305620Z
S005,1,38,0,mirror,634,1,2026-05-14T08:02:32.385072Z
S005,1,39,300,normal,664,1,2026-05-14T08:02:34.491200Z
S005,1,40,0,normal,496,1,2026-05-14T08:02:36.529466Z
S005,1,41,180,normal,1009,1,2026-05-14T08:02:39.509577Z
S005,1,42,0,normal,484,1,2026-05-14T08:02:42.506303Z
S005,1,43,60,normal,754,1,2026-05-14T08:02:45.076337Z
S005,1,44,180,normal,1015,1,2026-05-14T08:02:47.867057Z
S005,1,45,0,mirror,671,1,2026-05-14T08:02:50.045100Z
S005,1,46,240,normal,950,1,2026-05-14T08:02:52.586022Z
S005,1,47,300,mirror,753,1,2026-05-14T08:02:55.189076Z
S005,1,48,180,mirror,1108,1,2026-05-14T08:02:57.418645Z
S005,1,49,180,normal,1012,1,2026-05-14T08:02:59.981072Z
S005,1,50,300,mirror,766,1,2026-05-14T08:03:02.732940Z
S005,1,51,120,normal,908,1,2026-05-14T08:03:05.033183Z
S005,1,52,300,normal,644,1,2026-05-14T08:03:07.600246Z
S005,1,53,240,mirror,989,1,2026-05-14T08:03:09.635816Z
S005,1,54,300,normal,697,1,2026-05-14T08:03:12.081664Z
S005,1,55,240,mirror,990,1,2026-05-14T08:03:15.054743Z
S005,1,56,300,normal,694,1,2026-05-14T08:03:17.929641Z
S005,1,57,60,normal,672,1,2026-05-14T08:03:20.586828Z
S005,1,58,240,normal,848,1,2026-05-14T08:03:23.127608Z
S005,1,59,300,normal,659,1,2026-05-14T08:03:26.048953Z
S005,1,60,180,mirror,1161,1,2026-05-14T08:03:28.545451Z
S005,1,61,120,mirror,1004,1,2026-05-14T08:03:31.119471Z
S005,1,62,180,normal,988,0,2026-05-14T08:03:33.414687Z
S005,1,63,300,mirror,783,1,2026-05-14T08:03:35.714628Z
S005,1,64,120,normal,852,1,2026-05-14T08:03:38.491242Z
S005,1,65,60,normal,758,1,2026-05-14T08:03:41.057683Z
S005,1,66,240,mirror,921,1,2026-05-14T08:03:43.450585Z
S005,1,67,60,normal,710,0,2026-05-14T08:03:45.995362Z
S005,1,68,60,mirror,815,1,2026-05-14T08:03:48.553039Z
S005,1,69,180,mirror,1152,1,2026-05-14T08:03:51.203220Z
S005,1,70,120,normal,893,1,2026-05-14T08:03:53.314661Z
S005,1,71,60,mirror,822,1,2026-05-14T08:03:56.116728Z
S005,1,72,60,mirror,975,1,2026-05-14T08:03:59.098051Z
S005,1,73,0,mirror,628,1,2026-05-14T08:04:01.217828Z
S005,1,74,240,mirror,887,1,2026-05-14T08:04:03.432280Z
S005,1,75,0,mirror,587,1,2026-05-14T08:04:06.155062Z
S005,1,76,0,mirror,580,1,2026-05-14T08:04:08.201411Z
S005,1,77,60,normal,683,1,2026-05-14T08:04:11.025742Z
S005,1,78,120,mirror,1002,1,2026-05-14T08:04:13.046373Z
S005,1,79,0,mirror,571,1,2026-05-14T08:04:15.308214Z
S005,1,80,240,mirror,1081,1,2026-05-14T08:04:17.593265Z
S005,1,81,240,mirror,967,1,2026-05-14T08:04:20.171516Z
S005,1,82,300,normal,733,1,2026-05-14T08:04:22.623655Z
S005,1,83,60,mirror,791,1,2026-05-14T08:04:25.378652Z
S005,1,84,0,mirror,577,1,2026-05-14T08:04:28.185984Z
S005,1,85,180,normal,1103,1,2026-05-14T08:04:30.935269Z
S005,1,86,180,normal,1013,1,2026-05-14T08:04:33.789787Z
S005,1,87,120,normal,853,1,2026-05-14T08:04:35.872777Z
S005,1,88,300,mirror,862,1,2026-05-14T08:04:38.294036Z
S005,1,89,300,normal,782,1,2026-05-14T08:04:41.285996Z
S005,1,90,180,mirror,977,1,2026-05-14T08:04:43.722288Z
S005,1,91,60,mirror,879,1,2026-05-14T08:04:46.437303Z
S005,1,92,120,normal,867,1,2026-05-14T08:04:49.132983Z
S005,1,93,180,mirror,1073,1,2026-05-14T08:04:51.373002Z
S005,1,94,120,normal,868,1,2026-05-14T08:04:53.760674Z
S005,1,95,120,mirror,999,1,2026-05-14T08:04:56.140953Z
S005,1,96,240,normal,988,1,2026-05-14T08:04:59.098917Z
S005,1,97,0,mirror,573,1,2026-05-14T08:05:01.773691Z
S005,1,98,180,normal,1098,1,2026-05-14T08:05:04.741884Z
S005,1,99,240,normal,884,1,2026-05-14T08:05:07.457379Z
S005,1,100,120,mirror,899,0,2026-05-14T08:05:09.935023Z
S005,1,101,0,normal,549,1,2026-05-14T08:05:12.706407Z
S005,1,102,120,mirror,911,1,2026-05-14T08:05:15.679375Z
S005,1,103,60,mirror,766,1,2026-05-14T08:05:18.356197Z
S005,1,104,0,normal,589,1,2026-05-14T08:05:20.723807Z
S005,1,105,120,normal,864,1,2026-05-14T08:05:23.180300Z
S005,1,106,180,mirror,1121,1,2026-05-14T08:05:25.230164Z
S005,1,107,180,mirror,1169,1,2026-05-14T08:05:27.993052Z
S005,1,108,60,mirror,819,1,2026-05-14T08:05:30.235398Z
S005,1,109,0,normal,590,1,2026-05-14T08:05:32.641268Z
S005,1,110,60,normal,681,1,2026-05-14T08:05:35.145723Z
S005,1,111,60,mirror,858,1,2026-05-14T08:05:38.099006Z
S005,1,112,300,normal,689,1,2026-05-14T08:05:40.986760Z
S005,1,113,240,mirror,926,1,2026-05-14T08:05:43.690627Z
S005,1,114,300,mirror,751,1,2026-05-14T08:05:45.883829Z
S005,1,115,120,normal,854,1,2026-05-14T08:05:48.674195Z
S005,1,116,300,normal,715,1,2026-05-14T08:05:51.626875Z
S005,1,117,240,normal,877,1,2026-05-14T08:05:53.962299Z
S005,1,118,300,mirror,854,1,2026-05-14T08:05:55.962634Z
S005,1,119,0,normal,535,1,2026-05-14T08:05:58.378772Z
S005,1,120,120,mirror,900,1,2026-05-14T08:06:00.892911Z
S005,2,1,120,normal,889,1,2026-05-14T08:08:03.818696Z
S005,2,2,300,normal,565,1,2026-05-14T08:08:06.152412Z
S005,2,3,240,normal,898,1,2026-05-14T08:08:08.654769Z
S005,2,4,0,mirror,694,1,2026-05-14T08:08:10.975554Z
S005,2,5,240,mirror,1029,1,2026-05-14T08:08:13.351991Z
S005,2,6,0,normal,535,1,2026-05-14T08:08:15.578538Z
S005,2,7,120,mirror,965,1,2026-05-14T08:08:18.085662Z
S005,2,8,300,normal,709,1,2026-05-14T08:08:20.526759Z
S005,2,9,300,mirror,758,1,2026-05-14T08:08:23.134506Z
S005,2,10,180,normal,1006,1,2026-05-14T08:08:26.090045Z
S005,2,11,180,mirror,1105,1,2026-05-14T08:08:28.416039Z
S005,2,12,300,normal,681,1,2026-05-14T08:08:30.471123Z
S005,2,13,120,normal,951,1,2026-05-14T08:08:33.378563Z
S005,2,14,240,normal,805,1,2026-05-14T08:08:35.880657Z
S005,2,15,120,normal,845,1,2026-05-14T08:08:38.577897Z
S005,2,16,60,normal,742,1,2026-05-14T08:08:41.525812Z
S005,2,17,180,mirror,1157,1,2026-05-14T08:08:44.233318Z
S005,2,18,180,mirror,1216,1,2026-05-14T08:08:46.800396Z
S005,2,19,120,mirror,960,1,2026-05-14T08:08:48.998203Z
S005,2,20,120,mirror,984,1,2026-05-14T08:08:51.230065Z
S005,2,21,0,normal,614,1,2026-05-14T08:08:53.366621Z
S005,2,22,180,normal,1074,1,2026-05-14T08:08:56.072674Z
S005,2,23,240,normal,897,1,2026-05-14T08:08:58.258646Z
S005,2,24,300,mirror,883,1,2026-05-14T08:09:00.294698Z
S005,2,25,60,normal,763,1,2026-05-14T08:09:02.587560Z
S005,2,26,60,normal,837,1,2026-05-14T08:09:04.921359Z
S005,2,27,180,normal,944,1,2026-05-14T08:09:06.982723Z
S005,2,28,240,normal,928,1,2026-05-14T08:09:09.098458Z
S005,2,29,120,normal,876,1,2026-05-14T08:09:11.525744Z
S005,2,30,60,mirror,824,1,2026-05-14T08:09:14.024676Z
S005,2,31,300,mirror,728,1,2026-05-14T08:09:16.100764Z
S005,2,32,240,mirror,894,1,2026-05-14T08:09:18.819518Z
S005,2,33,180,mirror,1096,1,2026-05-14T08:09:21.006045Z
S005,2,34,60,normal,824,1,2026-05-14T08:09:23.473546Z
S005,2,35,180,mirror,1047,1,2026-05-14T08:09:25.926836Z
S005,2,36,240,mirror,1030,1,2026-05-14T08:09:28.580935Z
S005,2,37,240,mirror,897,1,2026-05-14T08:09:31.028840Z
S005,2,38,60,normal,712,1,2026-05-14T08:09:33.818137Z
S005,2,39,180,mirror,1113,1,2026-05-14T08:09:36.382602Z
S005,2,40,0,mirror,632,1,2026-05-14T08:09:38.820443Z
S005,2,41,240,mirror,996,1,2026-05-14T08:09:41.732196Z
S005,2,42,240,mirror,962,1,2026-05-14T08:09:44.012204Z
S005,2,43,240,normal,860,1,2026-05-14T08:09:46.298347Z
S005,2,44,180,normal,1089,1,2026-05-14T08:09:48.729059Z
S005,2,45,120,normal,892,1,2026-05-14T08:09:50.770007Z
S005,2,46,240,mirror,1012,1,2026-05-14T08:09:52.950704Z
S005,2,47,0,mirror,726,1,2026-05-14T08:09:55.840700Z
S005,2,48,0,mirror,717,0,2026-05-14T08:09:58.763337Z
S005,2,49,60,mirror,800,1,2026-05-14T08:10:01.025781Z
S005,2,50,180,mirror,1151,1,2026-05-14T08:10:03.701223Z
S005,2,51,120,mirror,948,1,2026-05-14T08:10:06.230082Z
S005,2,52,300,mirror,780,1,2026-05-14T08:10:08.977993Z
S005,2,53,0,mirror,539,0,2026-05-14T08:10:11.187704Z
S005,2,54,180,mirror,1202,1,2026-05-14T08:10:14.025964Z
S005,2,55,0,normal,553,1,2026-05-14T08:10:16.028031Z
S005,2,56,300,normal,725,0,2026-05-14T08:10:18.779230Z
S005,2,57,120,mirror,918,1,2026-05-14T08:10:20.882715Z
S005,2,58,300,mirror,827,1,2026-05-14T08:10:23.817098Z
S005,2,59,300,mirror,754,1,2026-05-14T08:10:25.895077Z
S005,2,60,300,mirror,885,1,2026-05-14T08:10:28.633306Z
S005,2,61,60,normal,753,1,2026-05-14T08:10:31.161584Z
S005,2,62,60,mirror,895,1,2026-05-14T08:10:33.728542Z
S005,2,63,60,mirror,885,1,2026-05-14T08:10:36.401461Z
S005,2,64,60,mirror,758,1,2026-05-14T08:10:38.857134Z
S005,2,65,60,mirror,766,1,2026-05-14T08:10:41.597985Z
S005,2,66,240,mirror,954,1,2026-05-14T08:10:43.688274Z
S005,2,67,60,mirror,832,1,2026-05-14T08:10:45.930549Z
S005,2,68,180,normal,988,1,2026-05-14T08:10:47.983088Z
S005,2,69,120,normal,883,1,2026-05-14T08:10:50.955099Z
S005,2,70,0,normal,550,1,2026-05-14T08:10:53.729823Z
S005,2,71,300,normal,760,1,2026-05-14T08:10:56.648654Z
S005,2,72,240,normal,907,1,2026-05-14T08:10:58.743841Z
S005,2,73,180,mirror,1204,1,2026-05-14T08:11:01.302487Z
S005,2,74,240,mirror,952,1,2026-05-14T08:11:03.943080Z
S005,2,75,240,normal,873,1,2026-05-14T08:11:06.168279Z
S005,2,76,300,normal,717,1,2026-05-14T08:11:09.060973Z
S005,2,77,180,normal,1026,1,2026-05-14T08:11:11.621624Z
S005,2,78,120,mirror,899,1,2026-05-14T08:11:13.641263Z
S005,2,79,60,mirror,824,0,2026-05-14T08:11:16.625168Z
S005,2,80,60,normal,830,1,2026-05-14T08:11:18.665724Z
S005,2,81,0,normal,555,1,2026-05-14T08:11:21.273131Z
S005,2,82,300,normal,739,1,2026-05-14T08:11:23.645143Z
S005,2,83,60,mirror,811,1,2026-05-14T08:11:26.527282Z
S005,2,84,120,normal,744,1,2026-05-14T08:11:28.988812Z
S005,2,85,120,normal,792,1,2026-05-14T08:11:31.841303Z
S005,2,86,120,mirror,967,1,2026-05-14T08:11:34.120274Z
S005,2,87,0,mirror,592,1,2026-05-14T08:11:36.513654Z
S005,2,88,60,normal,767,1,2026-05-14T08:11:39.500882Z
S005,2,89,120,normal,885,1,2026-05-14T08:11:42.025510Z
S005,2,90,240,normal,866,1,2026-05-14T08:11:44.678416Z
S005,2,91,180,mirror,1185,1,2026-05-14T08:11:47.580723Z
S005,2,92,240,normal,932,1,2026-05-14T08:11:49.856174Z
S005,2,93,180,normal,940,1,2026-05-14T08:11:51.972728Z
S005,2,94,240,normal,833,1,2026-05-14T08:11:54.931554Z
S005,2,95,0,mirror,614,1,2026-05-14T08:11:57.680144Z
S005,2,96,60,normal,718,1,2026-05-14T08:12:00.570809Z
S005,2,97,0,normal,554,1,2026-05-14T08:12:03.145695Z
S005,2,98,300,mirror,776,1,2026-05-14T08:12:05.362760Z
S005,2,99,0,mirror,619,1,2026-05-14T08:12:07.530872Z
S005,2,100,60,normal,651,1,2026-05-14T08:12:09.649484Z
S005,2,101,120,normal,819,1,2026-05-14T08:12:12.141419Z
S005,2,102,0,mirror,665,1,2026-05-14T08:12:14.668094Z
S005,2,103,0,normal,523,1,2026-05-14T08:12:16.669579Z
S005,2,104,300,mirror,833,1,2026-05-14T08:12:19.132622Z
S005,2,105,0,normal,519,1,2026-05-14T08:12:21.453218Z
S005,2,106,180,normal,1104,1,2026-05-14T08:12:23.875456Z
S005,2,107,0,mirror,730,1,2026-05-14T08:12:26.422085Z
S005,2,108,120,mirror,976,1,2026-05-14T08:12:29.278315Z
S005,2,109,0,normal,620,1,2026-05-14T08:12:32.136661Z
S005,2,110,120,mirror,903,1,2026-05-14T08:12:34.749889Z
S005,2,111,60,mirror,749,1,2026-05-14T08:12:37.713568Z
S005,2,112,300,normal,620,1,2026-05-14T08:12:40.652569Z
S005,2,113,300,normal,745,1,2026-05-14T08:12:43.086167Z
S005,2,114,120,mirror,960,1,2026-05-14T08:12:45.187481Z
S005,2,115,180,normal,1049,1,2026-05-14T08:12:47.402174Z
S005,2,116,180,normal,962,1,2026-05-14T08:12:49.731819Z
S005,2,117,300,mirror,778,1,2026-05-14T08:12:52.199453Z
S005,2,118,0,normal,551,1,2026-05-14T08:12:54.247946Z
S005,2,119,300,normal,578,1,2026-05-14T08:12:56.890384Z
S005,2,120,240,mirror,963,1,2026-05-14T08:12:59.867158Z
