subject_id,block,trial_id,angle,char_type,rt,correct,timestamp
S004,0,1,300,mirror,941,1,2026-05-13T08:00:00Z
S004,0,2,300,normal,732,1,2026-05-13T08:00:02.261538Z
S004,0,3,0,mirror,747,1,2026-05-13T08:00:04.774720Z
S004,0,4,60,normal,626,1,2026-05-13T08:00:06.997781Z
S004,0,5,120,mirror,1053,0,2026-05-13T08:00:09.586019Z
S004,0,6,180,normal,1126,1,2026-05-13T08:00:11.737573Z
S004,0,7,120,mirror,981,1,2026-05-13T08:00:14.317143Z
S004,0,8,60,mirror,973,1,2026-05-13T08:00:16.991124Z
S004,0,9,180,normal,1129,1,2026-05-13T08:00:19.417495Z
S004,0,10,60,mirror,1053,1,2026-05-13T08:00:21.798499Z
S004,0,11,180,mirror,1267,1,2026-05-13T08:00:23.914724Z
S004,0,12,240,mirror,1087,0,2026-05-13T08:00:26.112982Z
S004,0,13,60,normal,912,1,2026-05-13T08:00:28.465745Z
S004,0,14,240,normal,1069,1,2026-05-13T08:00:31.005010Z
S004,0,15,120,normal,752,1,2026-05-13T08:00:33.183546Z
S004,0,16,180,mirror,1329,1,2026-05-13T08:00:35.891891Z
S004,0,17,0,normal,657,1,2026-05-13T08:00:38.788458Z
S004,0,18,0,normal,744,1,2026-05-13T08:00:41.409938Z
S004,0,19,0,mirror,745,0,2026-05-13T08:00:43.654217Z
S004,0,20,300,mirror,849,1,2026-05-13T08:00:45.987980Z
S004,0,21,240,mirror,1003,1,2026-05-13T08:00:48.918977Z
S004,0,22,240,normal,896,1,2026-05-13T08:00:50.951393Z
S004,0,23,120,normal,978,0,2026-05-13T08:00:53.484033Z
S004,0,24,300,normal,855,1,2026-05-13T08:00:56.402726Z
S004,1,1,240,normal,913,1,2026-05-13T08:00:59.236984Z
S004,1,2,0,normal,546,1,2026-05-13T08:01:01.911142Z
S004,1,3,60,normal,766,1,2026-05-13T08:01:04.216597Z
S004,1,4,60,mirror,758,1,2026-05-13T08:01:06.713521Z
S004,1,5,60,normal,842,1,2026-05-13T08:01:09.144060Z
S004,1,6,240,mirror,980,1,2026-05-13T08:01:11.923300Z
S004,1,7,0,mirror,678,1,2026-05-13T08:01:14.666329Z
S004,1,8,300,mirror,775,1,2026-05-13T08:01:17.073124Z
S004,1,9,240,normal,786,1,2026-05-13T08:01:19.325102Z
S004,1,10,300,mirror,770,0,2026-05-13T08:01:22.042975Z
S004,1,11,180,normal,1076,1,2026-05-13T08:01:24.596281Z
S004,1,12,60,normal,660,1,2026-05-13T08:01:27.520515Z
S004,1,13,0,mirror,658,1,2026-05-13T08:01:29.542472Z
S004,1,14,0,mirror,610,1,2026-05-13T08:01:32.451175Z
S004,1,15,0,normal,640,1,2026-05-13T08:01:35.084796Z
S004,1,16,180,mirror,1196,1,2026-05-13T08:01:37.753433Z
S004,1,17,0,mirror,658,1,2026-05-13T08:01:39.840738Z
S004,1,18,60,normal,780,1,2026-05-13T08:01:41.907075Z
S004,1,19,120,mirror,981,1,2026-05-13T08:01:44.682063Z
S004,1,20,180,normal,1012,1,2026-05-13T08:01:47.446345Z
S004,1,21,300,mirror,771,1,2026-05-13T08:01:50.132624Z
S004,1,22,60,mirror,778,1,2026-05-13T08:01:52.572836Z
S004,1,23,0,normal,473,1,2026-05-13T08:01:55.152126Z
S004,1,24,180,normal,1078,1,2026-05-13T08:01:58.061324Z
S004,1,25,0,normal,544,1,2026-05-13T08:02:00.077394Z
S004,1,26,300,mirror,685,1,2026-05-13T08:02:02.085071Z
S004,1,27,180,mirror,1168,1,2026-05-13T08:02:04.672066Z
S004,1,28,240,mirror,982,1,2026-05-13T08:02:06.880499Z
S004,1,29,300,normal,780,1,2026-05-13T08:02:09.617208Z
S004,1,30,300,mirror,855,1,2026-05-13T08:02:11.882427Z
S004,1,31,120,normal,842,1,2026-05-13T08:02:14.224255Z
S004,1,32,300,normal,610,1,2026-05-13T08:02:16.287049Z
S004,1,33,300,normal,747,1,2026-05-13T08:02:19.066931Z
S004,1,34,180,normal,1035,1,2026-05-13T08:02:21.842426Z
S004,1,35,0,mirror,630,1,2026-05-13T08:02:24.744778Z
S004,1,36,240,mirror,962,1,2026-05-13T08:02:27.600491Z
S004,1,37,0,mirror,648,1,2026-05-13T08:02:29.846882Z
S004,1,38,0,normal,575,1,2026-05-13T08:02:31.956718Z
S004,1,39,240,normal,839,1,2026-05-13T08:02:34.242462Z
S004,1,40,0,normal,544,0,2026-05-13T08:02:37.184969Z
S004,1,41,120,mirror,1136,1,2026-05-13T08:02:39.716803Z
S004,1,42,0,mirror,719,1,2026-05-13T08:02:42.172866Z
S004,1,43,120,mirror,971,1,2026-05-13T08:02:44.182776Z
S004,1,44,240,normal,963,1,2026-05-13T08:02:46.699595Z
S004,1,45,60,mirror,830,0,2026-05-13T08:02:49.159091Z
S004,1,46,120,mirror,1077,1,2026-05-13T08:02:51.487704Z
S004,1,47,0,normal,477,1,2026-05-13T08:02:53.924971Z
S004,1,48,120,mirror,942,1,2026-05-13T08:02:56.082612Z
S004,1,49,240,mirror,1022,1,2026-05-13T08:02:58.686597Z
S004,1,50,240,normal,1007,1,2026-05-13T08:03:01.036475Z
S004,1,51,300,normal,616,1,2026-05-13T08:03:03.815890Z
S004,1,52,300,normal,646,1,2026-05-13T08:03:06.048723Z
S004,1,53,240,mirror,1016,1,2026-05-13T08:03:08.926060Z
S004,1,54,240,mirror,1018,1,2026-05-13T08:03:11.801074Z
S004,1,55,0,normal,581,1,2026-05-13T08:03:14.793423Z
S004,1,56,180,mirror,1149,1,2026-05-13T08:03:16.956495Z
S004,1,57,120,normal,904,1,2026-05-13T08:03:19.046238Z
S004,1,58,60,normal,663,1,2026-05-13T08:03:21.199516Z
S004,1,59,300,normal,677,1,2026-05-13T08:03:23.317528Z
S004,1,60,180,normal,1016,1,2026-05-13T08:03:25.631442Z
S004,1,61,240,mirror,966,1,2026-05-13T08:03:27.833674Z
S004,1,62,120,normal,843,1,2026-05-13T08:03:30.530271Z
S004,1,63,180,normal,999,1,2026-05-13T08:03:32.596910Z
S004,1,64,120,mirror,1040,1,2026-05-13T08:03:35.594905Z
S004,1,65,120,normal,862,1,2026-05-13T08:03:37.642254Z
S004,1,66,180,normal,919,1,2026-05-13T08:03:39.858060Z
S004,1,67,0,normal,576,1,2026-05-13T08:03:42.290451Z
S004,1,68,120,normal,863,1,2026-05-13T08:03:45.027345Z
S004,1,69,300,normal,728,1,2026-05-13T08:03:48.015348Z
S004,1,70,60,mirror,857,1,2026-05-13T08:03:50.893490Z
S004,1,71,120,normal,804,1,2026-05-13T08:03:53.555776Z
S004,1,72,180,mirror,1045,1,2026-05-13T08:03:56.032729Z
S004,1,73,60,mirror,843,1,2026-05-13T08:03:58.962416Z
S004,1,74,120,normal,768,1,2026-05-13T08:04:01.217452Z
S004,1,75,300,mirror,857,1,2026-05-13T08:04:03.521950Z
S004,1,76,60,mirror,817,1,2026-05-13T08:04:06.148851Z
S004,1,77,0,mirror,666,1,2026-05-13T08:04:08.891885Z
S004,1,78,60,mirror,877,1,2026-05-13T08:04:11.167868Z
S004,1,79,180,normal,1065,1,2026-05-13T08:04:13.703771Z
S004,1,80,180,mirror,1116,1,2026-05-13T08:04:15.794099Z
S004,1,81,240,normal,811,1,2026-05-13T08:04:17.800057Z
S004,1,82,300,normal,722,1,2026-05-13T08:04:20.654856Z
S004,1,83,240,normal,894,1,2026-05-13T08:04:23.435297Z
S004,1,84,60,mirror,761,1,2026-05-13T08:04:26.180418Z
S004,1,85,180,normal,991,1,2026-05-13T08:04:28.757254Z
S004,1,86,300,normal,696,0,2026-05-13T08:04:31.374508Z
S004,1,87,60,normal,646,1,2026-05-13T08:04:33.652719Z
S004,1,88,300,mirror,809,1,2026-05-13T08:04:35.982752Z
S004,1,89,180,mirror,1237,1,2026-05-13T08:04:38.757337Z
S004,1,90,120,mirror,1098,1,2026-05-13T08:04:41.484094Z
S004,1,91,120,mirror,972,1,2026-05-13T08:04:43.779069Z
S004,1,92,240,normal,966,1,2026-05-13T08:04:46.528684Z
S004,1,93,60,normal,817,1,2026-05-13T08:04:49.434866Z
S004,1,94,240,normal,785,1,2026-05-13T08:04:51.668939Z
S004,1,95,180,mirror,1163,1,2026-05-13T08:04:53.941386Z
S004,1,96,240,mirror,989,1,2026-05-13T08:04:56.535252Z
S004,1,97,120,normal,916,1,2026-05-13T08:04:59.118893Z
S004,1,98,300,mirror,903,1,2026-05-13T08:05:01.245719Z
S004,1,99,60,normal,785,1,2026-05-13T08:05:04.203075Z
S004,1,100,240,normal,873,1,2026-05-13T08:05:07.079760Z
S004,1,101,180,mirror,1049,1,2026-05-13T08:05:09.477435Z
S004,1,102,240,mirror,1047,1,2026-05-13T08:05:12.426624Z
S004,1,103,300,mirror,795,1,2026-05-13T08:05:14.619745Z
S004,1,104,120,mirror,999,1,2026-05-13T08:05:17.601853Z
S004,1,105,180,mirror,1140,1,2026-05-13T08:05:19.926127Z
S004,1,106,240,mirror,970,1,2026-05-13T08:05:22.893036Z
S004,1,107,300,mirror,864,1,2026-05-13T08:05:25.215857Z
S004,1,108,0,mirror,686,1,2026-05-13T08:05:27.954896Z
S004,1,109,0,mirror,654,1,2026-05-13T08:05:30.427029Z
S004,1,110,60,normal,728,1,2026-05-13T08:05:33.212553Z
S004,1,111,180,mirror,1089,1,2026-05-13T08:05:35.553210Z
S004,1,112,180,normal,972,1,2026-05-13T08:05:37.716551Z
S004,1,113,60,mirror,867,1,2026-05-13T08:05:40.187104Z
S004,1,114,120,mirror,1041,1,2026-05-13T08:05:43.107758Z
S004,1,115,60,mirror,884,1,2026-05-13T08:05:45.457881Z
S004,1,116,120,normal,896,1,2026-05-13T08:05:47.464699Z
S004,1,117,60,normal,693,1,2026-05-13T08:05:49.934776Z
S004,1,118,120,normal,872,1,2026-05-13T08:05:52.164259Z
S004,1,119,0,normal,592,1,2026-05-13T08:05:54.867528Z
S004,1,120,300,normal,701,1,2026-05-13T08:05:57.033510Z
S004,2,1,0,normal,630,1,2026-05-13T08:07:59.880110Z
S004,2,2,120,normal,895,1,2026-05-13T08:08:02.171494Z
S004,2,3,240,normal,813,1,2026-05-13T08:08:04.986220Z
S004,2,4,120,mirror,1021,1,2026-05-13T08:08:07.979484Z
S004,2,5,180,mirror,1160,1,2026-05-13T08:08:10.588859Z
S004,2,6,240,mirror,1043,1,2026-05-13T08:08:13.245520Z
S004,2,7,60,mirror,769,1,2026-05-13T08:08:15.417903Z
S004,2,8,120,normal,939,1,2026-05-13T08:08:17.555652Z
S004,2,9,240,normal,927,1,2026-05-13T08:08:19.673239Z
S004,2,10,180,normal,1069,1,2026-05-13T08:08:22.072340Z
S004,2,11,300,mirror,693,1,2026-05-13T08:08:25.057614Z
S004,2,12,180,normal,1006,1,2026-05-13T08:08:27.691217Z
S004,2,13,300,mirror,848,1,2026-05-13T08:08:30.179851Z
S004,2,14,60,mirror,891,1,2026-05-13T08:08:32.625112Z
S004,2,15,300,normal,677,1,2026-05-13T08:08:34.899634Z
S004,2,16,300,normal,739,1,2026-05-13T08:08:37.580755Z
S004,2,17,300,normal,752,1,2026-05-13T08:08:40.139250Z
S004,2,18,240,mirror,998,1,2026-05-13T08:08:42.305292Z
S004,2,19,60,mirror,893,1,2026-05-13T08:08:44.482974Z
S004,2,20,0,mirror,755,1,2026-05-13T08:08:46.694938Z
S004,2,21,60,mirror,836,1,2026-05-13T08:08:48.897862Z
S004,2,22,0,mirror,645,1,2026-05-13T08:08:51.672382Z
S004,2,23,240,normal,789,1,2026-05-13T08:08:54.107340Z
S004,2,24,0,mirror,636,1,2026-05-13T08:08:56.551267Z
S004,2,25,300,normal,564,1,2026-05-13T08:08:59.292421Z
S004,2,26,120,mirror,994,1,2026-05-13T08:09:02.002400Z
S004,2,27,60,normal,675,1,2026-05-13T08:09:04.677616Z
S004,2,28,60,normal,741,1,2026-05-13T08:09:07.281620Z
S004,2,29,240,normal,1031,1,2026-05-13T08:09:09.322816Z
S004,2,30,300,mirror,723,1,2026-05-13T08:09:11.578333Z
S004,2,31,240,normal,989,1,2026-05-13T08:09:13.907335Z
S004,2,32,240,normal,941,1,2026-05-13T08:09:16.481896Z
S004,2,33,120,mirror,935,1,2026-05-13T08:09:19.072182Z
S004,2,34,120,mirror,996,1,2026-05-13T08:09:21.791692Z
S004,2,35,0,mirror,654,1,2026-05-13T08:09:24.492423Z
S004,2,36,300,mirror,827,1,2026-05-13T08:09:27.080348Z
S004,2,37,120,normal,843,1,2026-05-13T08:09:29.813833Z
S004,2,38,180,mirror,1104,1,2026-05-13T08:09:32.396641Z
S004,2,39,180,normal,1012,1,2026-05-13T08:09:35.273648Z
S004,2,40,180,normal,1084,1,2026-05-13T08:09:37.403993Z
S004,2,41,300,normal,628,1,2026-05-13T08:09:40.368762Z
S004,2,42,240,normal,796,1,2026-05-13T08:09:43.320115Z
S004,2,43,240,normal,839,1,2026-05-13T08:09:46.137822Z
S004,2,44,0,mirror,651,1,2026-05-13T08:09:48.590130Z
S004,2,45,60,normal,689,1,2026-05-13T08:09:51.582563Z
S004,2,46,120,normal,829,1,2026-05-13T08:09:53.590723Z
S004,2,47,240,mirror,961,1,2026-05-13T08:09:55.734598Z
S004,2,48,180,mirror,1131,1,2026-05-13T08:09:58.469792Z
S004,2,49,240,mirror,936,1,2026-05-13T08:10:01.079160Z
S004,2,50,240,normal,829,1,2026-05-13T08:10:03.919529Z
S004,2,51,120,normal,904,0,2026-05-13T08:10:06.034091Z
S004,2,52,120,normal,801,1,2026-05-13T08:10:08.433723Z
S004,2,53,60,mirror,716,1,2026-05-13T08:10:11.140366Z
S004,2,54,300,mirror,819,1,2026-05-13T08:10:13.635926Z
S004,2,55,120,normal,876,1,2026-05-13T08:10:16.194677Z
S004,2,56,240,mirror,1080,1,2026-05-13T08:10:18.324154Z
S004,2,57,60,mirror,758,1,2026-05-13T08:10:21.185908Z
S004,2,58,120,normal,885,1,2026-05-13T08:10:23.714088Z
S004,2,59,180,normal,1006,1,2026-05-13T08:10:26.586808Z
S004,2,60,240,mirror,962,1,2026-05-13T08:10:29.001911Z
S004,2,61,0,mirror,717,1,2026-05-13T08:10:31.661379Z
S004,2,62,120,mirror,961,1,2026-05-13T08:10:34.346275Z
S004,2,63,60,normal,694,1,2026-05-13T08:10:36.595408Z
S004,2,64,120,mirror,901,1,2026-05-13T08:10:38.726131Z
S004,2,65,300,normal,647,1,2026-05-13T08:10:41.143352Z
S004,2,66,240,mirror,932,1,2026-05-13T08:10:43.937136Z
S004,2,67,240,mirror,997,1,2026-05-13T08:10:46.686914Z
S004,2,68,300,mirror,742,1,2026-05-13T08:10:49.376885Z
S004,2,69,0,normal,471,1,2026-05-13T08:10:52.305143Z
S004,2,70,60,mirror,793,1,2026-05-13T08:10:55.029197Z
S004,2,71,60,mirror,749,1,2026-05-13T08:10:57.575315Z
S004,2,72,0,normal,517,1,2026-05-13T08:10:59.679379Z
S004,2,73,240,mirror,967,1,2026-05-13T08:11:01.909547Z
S004,2,74,120,mirror,983,1,2026-05-13T08:11:04.096793Z
S004,2,75,60,normal,696,1,2026-05-13T08:11:06.713814Z
S004,2,76,180,normal,1117,1,2026-05-13T08:11:09.328583Z
S004,2,77,0,mirror,639,1,2026-05-13T08:11:12.189769Z
S004,2,78,180,mirror,1087,0,2026-05-13T08:11:15.001432Z
S004,2,79,240,mirror,1025,1,2026-05-13T08:11:17.379092Z
S004,2,80,60,mirror,800,1,2026-05-13T08:11:19.956939Z
S004,2,81,60,normal,675,1,2026-05-13T08:11:22.488208Z
S004,2,82,60,normal,733,0,2026-05-13T08:11:24.804546Z
S004,2,83,180,normal,1071,1,2026-05-13T08:11:27.749398Z
S004,2,84,300,mirror,794,1,2026-05-13T08:11:29.943043Z
S004,2,85,0,normal,601,1,2026-05-13T08:11:32.630457Z
S004,2,86,180,normal,1025,1,2026-05-13T08:11:34.792953Z
S004,2,87,0,mirror,742,1,2026-05-13T08:11:37.382656Z
S004,2,88,180,mirror,1081,1,2026-05-13T08:11:39.768028Z
S004,2,89,120,normal,892,0,2026-05-13T08:11:42.039702Z
S004,2,90,0,normal,517,1,2026-05-13T08:11:44.522243Z
S004,2,91,300,mirror,744,1,2026-05-13T08:11:46.579007Z
S004,2,92,0,normal,623,1,2026-05-13T08:11:48.737810Z
S004,2,93,300,mirror,791,1,2026-05-13T08:11:50.977576Z
S004,2,94,180,normal,1064,1,2026-05-13T08:11:53.142280Z
S004,2,95,120,mirror,948,1,2026-05-13T08:11:55.151807Z
S004,2,96,120,mirror,984,1,2026-05-13T08:11:57.192117Z
S004,2,97,120,normal,945,1,2026-05-13T08:11:59.273250Z
S004,2,98,180,mirror,1143,1,2026-05-13T08:12:01.495394Z
S004,2,99,180,mirror,1100,1,2026-05-13T08:12:03.571405Z
S004,2,100,60,normal,715,1,2026-05-13T08:12:06.303105Z
S004,2,101,180,mirror,1219,1,2026-05-13T08:12:09.212139Z
S004,2,102,0,mirror,660,1,2026-05-13T08:12:11.500246Z
S004,2,103,180,normal,1104,1,2026-05-13T08:12:13.548050Z
S004,2,104,0,normal,567,0,2026-05-13T08:12:16.417792Z
S004,2,105,60,normal,835,1,2026-05-13T08:12:19.270321Z
S004,2,106,60,normal,656,1,2026-05-13T08:12:21.875696Z
S004,2,107,0,normal,593,1,2026-05-13T08:12:24.256503Z
S004,2,108,300,mirror,773,1,2026-05-13T08:12:26.428015Z
S004,2,109,300,normal,645,1,2026-05-13T08:12:28.928668Z
S004,2,110,60,mirror,758,1,2026-05-13T08:12:31.518056Z
S004,2,111,180,mirror,1120,1,2026-05-13T08:12:34.435274Z
S004,2,112,0,mirror,542,1,2026-05-13T08:12:37.179201Z
S004,2,113,300,normal,689,1,2026-05-13T08:12:39.558769Z
S004,2,114,240,normal,785,1,2026-05-13T08:12:42.542742Z
S004,2,115,120,mirror,968,1,2026-05-13T08:12:45.024176Z
S004,2,116,0,normal,534,1,2026-05-13T08:12:47.552795Z
S004,2,117,180,mirror,1211,1,2026-05-13T08:12:49.869698Z
S004,2,118,300,normal,723,1,2026-05-13T08:12:52.686328Z
S004,2,119,0,normal,496,1,2026-05-13T08:12:54.941116Z
S004,2,120,300,normal,676,1,2026-05-13T08:12:57.371615Z
