subject_id,block,trial_id,angle,char_type,rt,correct,timestamp
S020,0,1,120,mirror,1028,1,2026-05-29T08:00:00Z
S020,0,2,180,mirror,1312,1,2026-05-29T08:00:02.058588Z
S020,0,3,240,normal,1058,1,2026-05-29T08:00:04.523068Z
S020,0,4,180,mirror,1295,1,2026-05-29T08:00:07.397782Z
S020,0,5,240,normal,1018,1,2026-05-29T08:00:10.152598Z
S020,0,6,60,normal,880,1,2026-05-29T08:00:12.680877Z
S020,0,7,120,normal,998,1,2026-05-29T08:00:14.984493Z
S020,0,8,180,normal,1194,0,2026-05-29T08:00:17.308134Z
S020,0,9,300,mirror,966,1,2026-05-29T08:00:19.621534Z
S020,0,10,120,normal,1000,1,2026-05-29T08:00:21.762020Z
S020,0,11,60,mirror,991,1,2026-05-29T08:00:24.366413Z
S020,0,12,60,normal,856,0,2026-05-29T08:00:26.516439Z
S020,0,13,0,mirror,738,0,2026-05-29T08:00:28.751332Z
S020,0,14,60,mirror,885,1,2026-05-29T08:00:31.523482Z
S020,0,15,0,mirror,750,0,2026-05-29T08:00:34.375781Z
S020,0,16,0,normal,722,1,2026-05-29T08:00:36.737644Z
S020,0,17,240,mirror,1020,1,2026-05-29T08:00:38.755914Z
S020,0,18,240,mirror,1121,0,2026-05-29T08:00:40.900369Z
S020,0,19,180,normal,1208,1,2026-05-29T08:00:43.465951Z
S020,0,20,0,normal,705,1,2026-05-29T08:00:45.656146Z
S020,0,21,300,normal,756,1,2026-05-29T08:00:47.750562Z
S020,0,22,300,normal,660,1,2026-05-29T08:00:50.617489Z
S020,0,23,120,mirror,1087,0,2026-05-29T08:00:53.036127Z
S020,0,24,300,mirror,895,1,2026-05-29T08:00:55.228945Z
S020,1,1,120,mirror,1055,1,2026-05-29T08:00:57.652994Z
S020,1,2,0,mirror,667,1,2026-05-29T08:01:00.392246Z
S020,1,3,180,mirror,1111,1,2026-05-29T08:01:02.961130Z
S020,1,4,60,mirror,851,1,2026-05-29T08:01:05.649378Z
S020,1,5,60,normal,801,1,2026-05-29T08:01:07.901218Z
S020,1,6,120,mirror,1073,1,2026-05-29T08:01:10.284708Z
S020,1,7,0,normal,451,1,2026-05-29T08:01:13.252679Z
S020,1,8,120,normal,819,1,2026-05-29T08:01:15.452607Z
S020,1,9,120,normal,833,1,2026-05-29T08:01:18.101444Z
S020,1,10,180,mirror,1180,1,2026-05-29T08:01:20.818022Z
S020,1,11,60,normal,832,1,2026-05-29T08:01:23.706057Z
S020,1,12,120,mirror,941,1,2026-05-29T08:01:26.007673Z
S020,1,13,300,normal,760,1,2026-05-29T08:01:28.730805Z
S020,1,14,300,mirror,936,0,2026-05-29T08:01:31.381425Z
S020,1,15,240,mirror,969,1,2026-05-29T08:01:33.891785Z
S020,1,16,60,mirror,912,1,2026-05-29T08:01:36.864935Z
S020,1,17,240,normal,891,1,2026-05-29T08:01:39.451872Z
S020,1,18,300,normal,663,1,2026-05-29T08:01:41.527644Z
S020,1,19,300,mirror,766,1,2026-05-29T08:01:44.083477Z
S020,1,20,240,normal,854,1,2026-05-29T08:01:46.175570Z
S020,1,21,0,normal,632,1,2026-05-29T08:01:48.610198Z
S020,1,22,180,mirror,1240,1,2026-05-29T08:01:50.817014Z
S020,1,23,60,mirror,788,1,2026-05-29T08:01:53.801299Z
S020,1,24,180,normal,947,1,2026-05-29T08:01:56.263736Z
S020,1,25,300,mirror,829,1,2026-05-29T08:01:58.607626Z
S020,1,26,0,normal,482,1,2026-05-29T08:02:00.867555Z
S020,1,27,300,normal,570,1,2026-05-29T08:02:03.800532Z
S020,1,28,180,normal,989,1,2026-05-29T08:02:06.293902Z
S020,1,29,180,mirror,1212,1,2026-05-29T08:02:09.241364Z
S020,1,30,0,mirror,634,1,2026-05-29T08:02:11.471171Z
S020,1,31,120,mirror,986,1,2026-05-29T08:02:13.824432Z
S020,1,32,120,normal,832,1,2026-05-29T08:02:16.276080Z
S020,1,33,0,mirror,628,1,2026-05-29T08:02:18.893708Z
S020,1,34,60,mirror,849,1,2026-05-29T08:02:21.663380Z
S020,1,35,0,mirror,651,1,2026-05-29T08:02:24.361444Z
S020,1,36,300,normal,662,1,2026-05-29T08:02:27.239413Z
S020,1,37,0,mirror,739,1,2026-05-29T08:02:30.183117Z
S020,1,38,60,mirror,876,0,2026-05-29T08:02:32.294928Z
S020,1,39,120,normal,842,1,2026-05-29T08:02:35.115437Z
S020,1,40,240,mirror,1007,1,2026-05-29T08:02:37.444983Z
S020,1,41,60,normal,700,1,2026-05-29T08:02:40.051934Z
S020,1,42,120,mirror,1062,1,2026-05-29T08:02:42.851878Z
S020,1,43,180,normal,1011,1,2026-05-29T08:02:45.218324Z
S020,1,44,0,mirror,563,1,2026-05-29T08:02:47.379620Z
S020,1,45,60,normal,784,1,2026-05-29T08:02:50.111979Z
S020,1,46,300,normal,669,1,2026-05-29T08:02:52.357461Z
S020,1,47,0,mirror,586,1,2026-05-29T08:02:54.488395Z
S020,1,48,120,normal,949,1,2026-05-29T08:02:57.107636Z
S020,1,49,240,normal,885,1,2026-05-29T08:03:00.092576Z
S020,1,50,240,mirror,907,0,2026-05-29T08:03:02.843009Z
S020,1,51,180,normal,1076,1,2026-05-29T08:03:05.297426Z
S020,1,52,300,normal,820,1,2026-05-29T08:03:07.688351Z
S020,1,53,300,mirror,788,1,2026-05-29T08:03:10.235110Z
S020,1,54,240,normal,855,1,2026-05-29T08:03:12.331867Z
S020,1,55,180,mirror,1122,1,2026-05-29T08:03:14.799316Z
S020,1,56,120,mirror,1023,1,2026-05-29T08:03:17.607683Z
S020,1,57,60,mirror,838,1,2026-05-29T08:03:20.434145Z
S020,1,58,60,normal,761,1,2026-05-29T08:03:23.005207Z
S020,1,59,240,normal,843,1,2026-05-29T08:03:25.446688Z
S020,1,60,180,normal,1113,1,2026-05-29T08:03:28.065996Z
S020,1,61,0,normal,503,1,2026-05-29T08:03:30.840870Z
S020,1,62,60,mirror,706,1,2026-05-29T08:03:32.992864Z
S020,1,63,120,mirror,1032,1,2026-05-29T08:03:35.046703Z
S020,1,64,240,mirror,964,1,2026-05-29T08:03:37.961096Z
S020,1,65,120,normal,908,1,2026-05-29T08:03:40.742295Z
S020,1,66,180,mirror,1156,0,2026-05-29T08:03:43.460689Z
S020,1,67,180,mirror,1152,1,2026-05-29T08:03:45.525724Z
S020,1,68,240,mirror,1007,1,2026-05-29T08:03:47.570348Z
S020,1,69,180,normal,1006,1,2026-05-29T08:03:49.944716Z
S020,1,70,60,normal,738,1,2026-05-29T08:03:52.846626Z
S020,1,71,120,normal,866,1,2026-05-29T08:03:55.031662Z
S020,1,72,300,normal,669,1,2026-05-29T08:03:57.629074Z
S020,1,73,0,normal,617,1,2026-05-29T08:04:00.337822Z
S020,1,74,0,normal,561,1,2026-05-29T08:04:02.626238Z
S020,1,75,120,mirror,923,1,2026-05-29T08:04:04.654541Z
S020,1,76,0,normal,558,1,2026-05-29T08:04:06.761480Z
S020,1,77,60,mirror,755,1,2026-05-29T08:04:09.534835Z
S020,1,78,240,mirror,931,1,2026-05-29T08:04:12.054567Z
S020,1,79,300,normal,666,1,2026-05-29T08:04:14.974607Z
S020,1,80,0,normal,625,1,2026-05-29T08:04:17.445539Z
S020,1,81,0,mirror,555,1,2026-05-29T08:04:20.414138Z
S020,1,82,240,normal,895,1,2026-05-29T08:04:23.299210Z
S020,1,83,180,mirror,1180,1,2026-05-29T08:04:26.253938Z
S020,1,84,300,mirror,736,1,2026-05-29T08:04:28.782585Z
S020,1,85,180,normal,1001,1,2026-05-29T08:04:30.950390Z
S020,1,86,240,mirror,1113,1,2026-05-29T08:04:33.234505Z
S020,1,87,300,mirror,822,1,2026-05-29T08:04:35.471549Z
S020,1,88,300,mirror,837,1,2026-05-29T08:04:38.244520Z
S020,1,89,240,normal,850,1,2026-05-29T08:04:41.156256Z
S020,1,90,120,normal,955,1,2026-05-29T08:04:43.586229Z
S020,1,91,300,mirror,784,1,2026-05-29T08:04:46.430818Z
S020,1,92,0,mirror,643,1,2026-05-29T08:04:49.051111Z
S020,1,93,0,normal,579,1,2026-05-29T08:04:51.555907Z
S020,1,94,180,normal,942,1,2026-05-29T08:04:54.171526Z
S020,1,95,0,mirror,663,1,2026-05-29T08:04:56.652774Z
S020,1,96,240,mirror,945,0,2026-05-29T08:04:58.816984Z
S020,1,97,180,mirror,1097,1,2026-05-29T08:05:01.464181Z
S020,1,98,120,mirror,908,1,2026-05-29T08:05:03.924303Z
S020,1,99,240,normal,900,1,2026-05-29T08:05:06.178765Z
S020,1,100,300,mirror,838,1,2026-05-29T08:05:08.587204Z
S020,1,101,240,normal,910,1,2026-05-29T08:05:10.958121Z
S020,1,102,300,normal,697,1,2026-05-29T08:05:13.194962Z
S020,1,103,120,mirror,1049,1,2026-05-29T08:05:16.100902Z
S020,1,104,120,normal,861,1,2026-05-29T08:05:18.895572Z
S020,1,105,240,mirror,1005,1,2026-05-29T08:05:21.788607Z
S020,1,106,60,mirror,810,1,2026-05-29T08:05:23.794569Z
S020,1,107,240,normal,901,1,2026-05-29T08:05:26.691660Z
S020,1,108,180,normal,1037,0,2026-05-29T08:05:29.149600Z
S020,1,109,240,mirror,1052,1,2026-05-29T08:05:31.762103Z
S020,1,110,300,normal,636,1,2026-05-29T08:05:34.402564Z
S020,1,111,120,normal,897,1,2026-05-29T08:05:36.699227Z
S020,1,112,60,normal,688,1,2026-05-29T08:05:39.236222Z
S020,1,113,300,mirror,798,1,2026-05-29T08:05:41.863832Z
S020,1,114,60,normal,713,1,2026-05-29T08:05:44.711222Z
S020,1,115,0,normal,531,1,2026-05-29T08:05:47.696591Z
S020,1,116,60,normal,786,1,2026-05-29T08:05:50.254075Z
S020,1,117,60,mirror,811,1,2026-05-29T08:05:52.887703Z
S020,1,118,180,mirror,1204,1,2026-05-29T08:05:55.714104Z
S020,1,119,60,normal,652,1,2026-05-29T08:05:58.351192Z
S020,1,120,180,normal,968,1,2026-05-29T08:06:00.648059Z
S020,2,1,0,mirror,635,1,2026-05-29T08:08:03.433672Z
S020,2,2,240,mirror,970,1,2026-05-29T08:08:05.658291Z
S020,2,3,120,normal,827,1,2026-05-29T08:08:08.219421Z
S020,2,4,0,mirror,666,1,2026-05-29T08:08:10.729945Z
S020,2,5,300,mirror,834,1,2026-05-29T08:08:12.834785Z
S020,2,6,180,mirror,1113,1,2026-05-29T08:08:15.333119Z
S020,2,7,0,normal,484,1,2026-05-29T08:08:17.925931Z
S020,2,8,120,mirror,931,1,2026-05-29T08:08:20.585444Z
S020,2,9,180,mirror,1125,1,2026-05-29T08:08:23.385829Z
S020,2,10,300,normal,648,1,2026-05-29T08:08:26.379023Z
S020,2,11,180,mirror,1025,1,2026-05-29T08:08:28.587242Z
S020,2,12,0,normal,571,1,2026-05-29T08:08:31.446045Z
S020,2,13,60,normal,671,1,2026-05-29T08:08:33.762653Z
S020,2,14,240,mirror,959,1,2026-05-29T08:08:36.240169Z
S020,2,15,0,mirror,632,1,2026-05-29T08:08:38.447135Z
S020,2,16,120,normal,784,1,2026-05-29T08:08:40.880929Z
S020,2,17,60,mirror,805,1,2026-05-29T08:08:43.377781Z
S020,2,18,300,normal,715,1,2026-05-29T08:08:46.265194Z
S020,2,19,60,mirror,846,1,2026-05-29T08:08:48.670742Z
S020,2,20,240,mirror,1043,1,2026-05-29T08:08:51.607148Z
S020,2,21,300,normal,661,1,2026-05-29T08:08:54.048939Z
S020,2,22,240,normal,922,1,2026-05-29T08:08:56.581146Z
S020,2,23,180,normal,1075,1,2026-05-29T08:08:59.138573Z
S020,2,24,120,mirror,1062,1,2026-05-29T08:09:01.490164Z
S020,2,25,60,normal,728,1,2026-05-29T08:09:04.230549Z
S020,2,26,300,mirror,816,1,2026-05-29T08:09:06.932067Z
S020,2,27,120,mirror,1014,1,2026-05-29T08:09:09.534633Z
S020,2,28,60,mirror,894,1,2026-05-29T08:09:12.009224Z
S020,2,29,120,mirror,1015,1,2026-05-29T08:09:14.775816Z
S020,2,30,240,mirror,985,1,2026-05-29T08:09:17.181109Z
S020,2,31,60,normal,645,1,2026-05-29T08:09:19.669567Z
S020,2,32,0,normal,492,1,2026-05-29T08:09:22.378951Z
S020,2,33,0,normal,485,1,2026-05-29T08:09:24.873187Z
S020,2,34,120,normal,905,1,2026-05-29T08:09:26.995790Z
S020,2,35,180,mirror,1199,1,2026-05-29T08:09:29.291588Z
S020,2,36,180,mirror,1127,1,2026-05-29T08:09:31.381911Z
S020,2,37,300,normal,632,1,2026-05-29T08:09:33.698110Z
S020,2,38,300,mirror,795,1,2026-05-29T08:09:36.053674Z
S020,2,39,0,normal,576,1,2026-05-29T08:09:38.834131Z
S020,2,40,240,mirror,940,1,2026-05-29T08:09:41.699306Z
S020,2,41,120,normal,871,0,2026-05-29T08:09:44.150009Z
S020,2,42,60,normal,675,1,2026-05-29T08:09:46.436496Z
S020,2,43,180,mirror,1124,1,2026-05-29T08:09:48.611811Z
S020,2,44,300,normal,715,1,2026-05-29T08:09:51.046347Z
S020,2,45,300,mirror,897,1,2026-05-29T08:09:53.966567Z
S020,2,46,180,mirror,1041,1,2026-05-29T08:09:56.554975Z
S020,2,47,240,normal,913,1,2026-05-29T08:09:58.799415Z
S020,2,48,0,normal,551,1,2026-05-29T08:10:00.815094Z
S020,2,49,0,mirror,623,1,2026-05-29T08:10:03.057038Z
S020,2,50,300,normal,772,1,2026-05-29T08:10:05.839065Z
S020,2,51,120,normal,865,1,2026-05-29T08:10:08.544781Z
S020,2,52,240,mirror,970,1,2026-05-29T08:10:11.204946Z
S020,2,53,120,normal,835,1,2026-05-29T08:10:13.949972Z
S020,2,54,300,mirror,889,1,2026-05-29T08:10:16.295556Z
S020,2,55,180,normal,1078,0,2026-05-29T08:10:19.200104Z
S020,2,56,60,mirror,752,1,2026-05-29T08:10:21.503597Z
S020,2,57,300,normal,730,1,2026-05-29T08:10:23.792394Z
S020,2,58,180,mirror,1194,1,2026-05-29T08:10:25.799083Z
S020,2,59,0,mirror,592,1,2026-05-29T08:10:27.939011Z
S020,2,60,300,normal,716,1,2026-05-29T08:10:30.039424Z
S020,2,61,0,mirror,665,1,2026-05-29T08:10:32.292482Z
S020,2,62,60,mirror,781,1,2026-05-29T08:10:35.073037Z
S020,2,63,60,normal,674,1,2026-05-29T08:10:37.752328Z
S020,2,64,240,mirror,1083,1,2026-05-29T08:10:40.185860Z
S020,2,65,180,normal,961,1,2026-05-29T08:10:42.612443Z
S020,2,66,180,normal,1057,1,2026-05-29T08:10:44.993745Z
S020,2,67,60,mirror,751,1,2026-05-29T08:10:47.073581Z
S020,2,68,300,mirror,763,1,2026-05-29T08:10:49.387402Z
S020,2,69,0,mirror,597,1,2026-05-29T08:10:51.796716Z
S020,2,70,120,mirror,894,1,2026-05-29T08:10:54.385046Z
S020,2,71,240,normal,860,1,2026-05-29T08:10:56.591818Z
S020,2,72,120,mirror,972,1,2026-05-29T08:10:59.125299Z
S020,2,73,180,normal,1057,1,2026-05-29T08:11:02.105019Z
S020,2,74,120,normal,905,1,2026-05-29T08:11:04.561349Z
S020,2,75,240,normal,852,1,2026-05-29T08:11:06.677493Z
S020,2,76,240,mirror,1049,1,2026-05-29T08:11:08.707388Z
S020,2,77,240,normal,871,1,2026-05-29T08:11:11.365192Z
S020,2,78,60,normal,720,1,2026-05-29T08:11:13.756584Z
S020,2,79,0,normal,564,1,2026-05-29T08:11:15.978617Z
S020,2,80,120,normal,792,1,2026-05-29T08:11:18.340355Z
S020,2,81,0,mirror,665,1,2026-05-29T08:11:20.393131Z
S020,2,82,180,normal,1098,1,2026-05-29T08:11:23.370392Z
S020,2,83,300,mirror,739,1,2026-05-29T08:11:26.157870Z
S020,2,84,240,mirror,971,1,2026-05-29T08:11:28.386907Z
S020,2,85,300,mirror,805,1,2026-05-29T08:11:31.149813Z
S020,2,86,60,mirror,832,1,2026-05-29T08:11:33.229070Z
S020,2,87,120,mirror,1021,1,2026-05-29T08:11:36.037256Z
S020,2,88,60,normal,711,1,2026-05-29T08:11:38.563032Z
S020,2,89,240,normal,889,1,2026-05-29T08:11:40.850959Z
S020,2,90,180,mirror,1186,0,2026-05-29T08:11:42.878104Z
S020,2,91,240,normal,819,1,2026-05-29T08:11:45.169292Z
S020,2,92,180,normal,1102,1,2026-05-29T08:11:47.782919Z
S020,2,93,0,normal,505,1,2026-05-29T08:11:50.389677Z
S020,2,94,120,mirror,948,1,2026-05-29T08:11:53.296418Z
S020,2,95,240,mirror,971,1,2026-05-29T08:11:55.927088Z
S020,2,96,180,normal,1037,1,2026-05-29T08:11:58.455587Z
S020,2,97,0,mirror,740,1,2026-05-29T08:12:01.223182Z
S020,2,98,180,mirror,1144,1,2026-05-29T08:12:03.768407Z
S020,2,99,300,mirror,836,1,2026-05-29T08:12:06.394469Z
S020,2,100,0,normal,560,1,2026-05-29T08:12:08.711747Z
S020,2,101,180,normal,996,1,2026-05-29T08:12:11.021706Z
S020,2,102,0,mirror,658,1,2026-05-29T08:12:13.877173Z
S020,2,103,60,mirror,760,1,2026-05-29T08:12:16.190927Z
S020,2,104,240,normal,925,1,2026-05-29T08:12:19.031855Z
S020,2,105,180,normal,987,1,2026-05-29T08:12:21.351528Z
S020,2,106,240,normal,841,1,2026-05-29T08:12:23.805446Z
S020,2,107,300,mirror,772,1,2026-05-29T08:12:26.781103Z
S020,2,108,120,mirror,968,1,2026-05-29T08:12:28.870821Z
S020,2,109,120,mirror,1035,1,2026-05-29T08:12:31.209393Z
S020,2,110,120,normal,827,1,2026-05-29T08:12:33.781814Z
S020,2,111,60,normal,730,1,2026-05-29T08:12:36.538258Z
S020,2,112,60,normal,666,1,2026-05-29T08:12:38.593723Z
S020,2,113,120,normal,850,1,2026-05-29T08:12:40.996459Z
S020,2,114,60,mirror,872,1,2026-05-29T08:12:43.403488Z
S020,2,115,60,normal,599,1,2026-05-29T08:12:45.738385Z
S020,2,116,300,normal,689,1,2026-05-29T08:12:48.002858Z
S020,2,117,60,mirror,802,1,2026-05-29T08:12:50.084541Z
S020,2,118,240,normal,824,1,2026-05-29T08:12:53.022818Z
S020,2,119,0,normal,557,1,2026-05-29T08:12:55.976919Z
S020,2,120,300,normal,694,1,2026-05-29T08:12:58.369066Z
